t,ax,ay,az
0,0.0,-0.8544569753592514,-9.766487918815503
0.010001000000000003,0.0,-0.8544569753592514,-9.766487918815503
0.06500100000000002,0.0,-0.8544569753592514,-9.766487918815503
0.06644858457130963,0.0,-0.8544569753592514,-9.766487918815503
0.06934375371392883,0.0,-0.8544569753592514,-9.766487918815503
0.08526718399833444,0.0,-0.8544569753592514,-9.766487918815503
0.09978198916398819,0.0,-0.8544569753592514,-9.766487918815503
0.09985990806910365,0.0,-0.8544569753592514,-9.766487918815503
0.09993782697421912,0.0,-0.8544569753592514,-9.766487918815503
0.10009366478445005,0.0,21.899232310160173,119.27609645538107
0.10095077274072022,0.0,21.919584442598094,119.39151913406671
0.10250915084302963,0.0,21.95659289945477,119.60140452261007
0.11809293186612367,0.0,22.32707782880209,121.70252896685989
0.13367671288921773,0.0,22.698467929194113,123.80878689119916
0.19361832073223237,0.0,24.13508822679018,131.95626546664954
0.21589548782101745,0.0,24.28796554580365,132.82327582660253
0.24931123845419503,0.0,24.28489798145364,132.8058788046738
0.29386557263176516,0.0,24.278075796263806,132.76718826983662
0.3276225890262353,0.0,24.505228106095547,134.05543303486957
0.3782581136179405,0.0,24.924392184283498,136.4326306509337
0.392,0.0,25.87956508806478,136.9306295787463
0.40251075973826894,0.0,25.971677037670332,137.454966409463
0.42479593449013836,0.0,26.207109425480805,138.7893011234405
0.4588972637665362,0.0,26.573997600368198,140.83224891935205
0.5465235872542248,0.0,27.472698353584995,145.30401937565102
0.6250906723804944,0.0,28.37801883305522,148.69557319704867
0.6947618063876642,0.0,29.376107546355172,151.7281598425954
0.755536989275734,0.0,30.210325888537774,153.79319789553657
0.7959292539630222,0.0,30.724131787302753,155.12572322556858
0.8159386004495287,0.0,30.864958431539602,155.3163861630692
0.8581944429871603,0.0,31.037344587554884,155.4687751651754
0.9004502855247919,0.0,31.10072144627933,155.62217615218242
0.9741709386006959,0.0,31.010135594546888,155.55801136278478
1.0478915916765998,0.0,30.744944629669867,153.8174477102964
1.0933351967954195,0.0,30.611166184922766,152.142982247112
1.138778801914239,0.0,30.498646632201336,150.44180015767648
1.1528804573376188,0.0,30.450244234889446,149.9083616798246
1.1689661827992581,0.0,30.381710227143955,149.29788280889457
1.187035978299157,0.0,30.285596619805148,148.60772891147934
1.2122310443324606,0.0,30.233502803654222,148.22916180107444
1.2325149967920213,0.0,30.268149940994093,148.42208224402356
1.2563943707192948,0.0,30.300682415544667,148.6525016563688
1.2802737446465684,0.0,30.337681949642857,148.86745719395535
1.315267103011413,0.0,30.328769887643148,148.63362764115567
1.3502604613762574,0.0,30.238760251307042,147.69115634429687
1.3878863281350295,0.0,30.156259997834162,146.65322030621016
1.4281447032877292,0.0,30.073681580723886,145.80846658669824
1.468403078440429,0.0,29.95308028772181,145.09932773882468
1.5063407710580516,0.0,29.814580710578966,144.32817136233678
1.5405895245296566,0.0,29.649544319454336,143.21680760860795
1.5748382780012615,0.0,29.503756351547466,142.0639224573028
1.6090870314728665,0.0,29.349970768239046,140.95068964284613
1.6433357849444714,0.0,29.174306069864404,139.91401350071308
1.6775845384160764,0.0,28.982537328538516,138.85456059675346
1.7114316208600961,0.0,28.80494094144454,137.75267510474606
1.745278703304116,0.0,28.625236263662366,136.53128436095898
1.7791257857481357,0.0,28.435326932874908,135.30824187362435
1.8093023983843295,0.0,28.30449058843959,134.5303293233128
1.8358085412126972,0.0,28.31489780021394,134.51374661845787
1.862314684041065,0.0,28.32647707129846,134.45707896927004
1.8925335979167952,0.0,28.35581597827334,134.40801109459727
1.926465282839888,0.0,28.518988367053215,135.0081609603327
1.9670194273847954,0.0,28.748636111897135,135.98170847170334
1.9742378900413404,0.0,28.78526738911723,136.1456143916622
1.9850655840261577,0.0,28.84008897966009,136.39053464531926
1.9995025093392473,0.0,28.918784767906825,136.73727467829315
2.020142194284154,0.0,29.165427759946255,137.88713398181082
2.021844062614359,0.0,28.996108683614892,137.02011280041515
2.0252477992747693,0.0,28.657396740373258,135.28558868622784
2.0361292152234367,0.0,27.512832939204685,129.42816317765772
2.042482848033779,0.0,26.46779662731461,124.10283293878162
2.0472720252923198,0.0,25.097987156694018,117.1457867634236
2.0506877878226515,0.0,24.027121873211975,111.71079660200024
2.0513928910766044,0.0,23.57143195284802,109.40225773511274
2.05280309758451,0.0,22.659959025525723,104.78512876535603
2.060239944317874,0.0,17.84720664835676,80.41519351566812
2.0737034312766953,0.0,9.216873012102372,36.75214031306836
2.0809518742123587,0.0,4.7650601752955435,14.24676673813698
2.081985273124864,0.0,4.376358915953036,12.282101819842783
2.0840520709498755,0.0,3.599106131862354,8.353979826098062
2.0934354438492426,0.0,0.06347151984432065,-9.507534826326966
2.1010596894698446,0.0,-2.6323618350560043,-23.118805918561844
2.1049476962245834,0.0,-2.97964121746071,-24.869318600801744
2.1105143941983946,0.0,-3.4817227519631917,-27.39950052091566
2.117759783391278,0.0,-4.1467627770295,-30.749957233573788
2.120723114608738,0.0,-4.445778205016495,-32.25633517904325
2.124480912282889,0.0,-5.14973289205632,-35.80531611084231
2.129033176413731,0.0,-6.079320941696676,-40.491140497337945
2.1334628491666536,0.0,-6.072849934481232,-40.453534635652396
2.1401073582960373,0.0,-6.062999035759585,-40.39693201123439
2.161446508294159,0.0,-6.031166631082892,-40.21655573119188
2.195265462784558,0.0,-5.993357778418753,-39.99691458295119
2.255148379768929,0.0,-5.932481030383996,-39.631008736850916
2.3150312967533,0.0,-5.883027353628536,-39.32080493626784
2.3821749193500152,0.0,-5.834657845009071,-39.01717683334705
2.4493185419467305,0.0,-5.785011642872499,-38.701885989016525
2.529024964540169,0.0,-5.72622827412202,-38.331070290207926
2.647417616965084,0.0,-5.642002448964107,-37.800754935520544
2.7912438318747403,0.0,-5.550307791628067,-37.20844730242889
2.9218173794376616,0.0,-5.464894919364372,-36.66441727218565
3.078125833317125,0.0,-5.37084755110352,-36.05728374234235
3.2601691935131307,0.0,-5.266637133080293,-35.37964843022254
3.478434743918934,0.0,-5.1491572799183825,-34.610375162034764
3.6967002943247373,0.0,-5.040086970346801,-33.88766722643498
3.9149658447305407,0.0,-4.940430376421873,-33.21575031347374
4.133231395136344,0.0,-4.843096644218221,-32.560445907788264
4.351496945542148,0.0,-4.756642819851053,-31.96181649631322
4.569762495947951,0.0,-4.671664730165568,-31.373952099228372
4.8157401966996085,0.0,-4.5880814892069015,-30.7719432117646
5.061717897451266,0.0,-4.510515644639858,-30.205106220941957
5.3076955982029235,0.0,-4.434777606156562,-29.649990811008212
5.593736206378309,0.0,-4.358705903453121,-29.06380948785595
5.879776814553694,0.0,-4.28886374867,-28.510281306947103
6.23374655121897,0.0,-4.211951999316385,-27.87284556923702
6.587716287884246,0.0,-4.142333831173602,-27.27312025132547
7.039857336257511,0.0,-4.072158751348362,-26.59259134717483
7.491998384630777,0.0,-4.016225596555103,-25.97625569845462
8.076506888650224,0.0,-3.9614194256500155,-25.254316970114154
8.66101539266967,0.0,-3.9279249981649524,-24.61649169718762
9.245523896689116,0.0,-3.9091242449686345,-24.03122627863397
9.994360847827517,0.0,-3.912582219815873,-23.370559157332053
10.907526246084872,0.0,-3.9538831243763517,-22.664172722368026
11.820691644342228,0.0,-4.037488275202913,-22.04732045762767
12.54926657232222,0.0,-4.138365237899464,-21.611522395513628
13.27784150030221,0.0,-4.2737982408709305,-21.21900768959859
13.37615578168762,0.0,-4.2948102422807555,-21.168448613571645
13.47447006307303,0.0,-4.316295498487944,-21.117829484170215
13.650237365291654,0.0,-4.356361024126315,-21.028652774869204
13.805143406958083,0.0,-4.3936258443131795,-20.951440505494645
13.960049448624511,0.0,-4.433386527464989,-20.87641462725321
14.07635007271548,0.0,-4.464648689748851,-20.821530892721675
14.104276487238854,0.0,-4.4722542672065,-20.808391690929763
14.132202901762229,0.0,-4.479927758079006,-20.795282647295924
14.188055730808978,0.0,-4.49551681661415,-20.769177986617475
14.243908559855727,0.0,-4.5112239898345905,-20.74267233571297
14.329790123090326,0.0,-4.536060332052948,-20.70225467903364
14.445700420512775,0.0,-4.570627329612335,-20.648220558220444
14.561610717935224,0.0,-4.60649176265057,-20.595351706170838
14.699070603845716,0.0,-4.650871125546779,-20.533639963541724
14.836530489756207,0.0,-4.697404309980748,-20.472621129526054
14.973990375666698,0.0,-4.745744726358474,-20.412080334645058
15.11145026157719,0.0,-4.795736770468289,-20.351646315665967
15.287742675255393,0.0,-4.862702584842793,-20.273812871350145
15.442164082617689,0.0,-4.924724179047159,-20.206699028215663
15.596585489979985,0.0,-4.9895026433578025,-20.140491023186716
15.759425934682998,0.0,-5.061285516156129,-20.07095492864968
15.90684441441866,0.0,-5.129874359721613,-20.008229387784912
16.054262894154324,0.0,-5.200892701350931,-19.945403574404313
16.18968744227705,0.0,-5.268814779667273,-19.8876015321061
16.313118058786845,0.0,-5.3336676802883485,-19.83485594475984
16.43654867529664,0.0,-5.400970787092639,-19.781909765119657
16.605440992307646,0.0,-5.496732350634531,-19.708968811462373
16.774333309318653,0.0,-5.597562344876969,-19.635349274611258
16.96294601347853,0.0,-5.7170591213888935,-19.55208484570574
17.134141180833147,0.0,-5.831732642922734,-19.47524478788475
17.30381708889492,0.0,-5.951327508490861,-19.39780242119829
17.43900018787075,0.0,-6.051528877412357,-19.33521160772737
17.59034824616154,0.0,-6.169176881501027,-19.263531547113278
17.75786126376729,0.0,-6.306170147497495,-19.181466887825056
17.959529484591684,0.0,-6.481300269140688,-19.079121443453865
18.132852183313055,0.0,-6.6412122606810255,-18.987552417476653
18.2732785444842,0.0,-6.777842186666618,-18.91059960806881
18.457745229371994,0.0,-6.968041402122433,-18.805316019029917
18.68625223797644,0.0,-7.22128308209674,-18.666290662274307
18.945075455767178,0.0,-7.533762331290517,-18.49530924854072
19.234214882744208,0.0,-7.919217578438737,-18.28412370046935
19.52335430972124,0.0,-8.347924959041292,-18.04511248044491
19.81249373669827,0.0,-8.826867622121425,-17.77137820102325
20.17501808402499,0.0,-9.507724303367473,-17.364268040982857
20.492709395038062,0.0,-10.188431902908501,-16.93063014211201
20.810400706051134,0.0,-10.959497022105424,-16.40110155025101
21.128092017064205,0.0,-11.830431217480498,-15.745304400268337
21.445783328077276,0.0,-12.806986431139716,-14.923710466926792
21.763474639090347,0.0,-13.889903162627705,-13.884285605952186
22.053491264209296,0.0,-14.9609904143504,-12.68934494667816
22.31583320343412,0.0,-15.974933226418047,-11.356057433457716
22.578175142658946,0.0,-16.99337824405793,-9.735539113291733
22.84051708188377,0.0,-17.957488742035622,-7.784606466576279
23.102859021108596,0.0,-18.782674667170028,-5.474308812570153
23.314837840515036,0.0,-19.273862968045012,-3.345268784193274
23.526816659921476,0.0,-19.538776521546254,-1.0086005185385534
23.738795479327916,0.0,-19.51713079083325,1.4783780152370618
23.950774298734355,0.0,-19.16867335335689,4.022244105845543
24.14321964604723,0.0,-18.568445493312378,6.2748405159404905
24.316131521266534,0.0,-17.832811516597694,8.160201286909963
24.472088531622845,0.0,-17.06127492877219,9.68287176967333
24.61109067711616,0.0,-16.337613963409105,10.86081549181177
24.750092822609474,0.0,-15.62774947811388,11.85120572557882
24.90467655061991,0.0,-14.903553009820213,12.729743165036941
25.059260278630347,0.0,-14.28184040776284,13.392789676348677
25.213844006640784,0.0,-13.76792448441494,13.881514799437504
25.36842773465122,0.0,-13.336012583575199,14.253642156969224
25.523011462661657,0.0,-12.937520129556503,14.574950454662027
25.677595190672093,0.0,-12.516927129956855,14.905636878815821
25.864219930780735,0.0,-11.919481959337539,15.368439043869547
26.011102169468064,0.0,-11.368912053905039,15.779053428171155
26.14372647770598,0.0,-10.834816194268631,16.15469751384382
26.276350785943894,0.0,-10.309289663605815,16.49767711055785
26.416309596844645,0.0,-9.81931760932538,16.789042578002142
26.563602910408232,0.0,-9.422049675530063,16.997921197057963
26.685259517095044,0.0,-9.19063528434333,17.1008352683236
26.806916123781857,0.0,-9.021188600078242,17.162257415362212
26.92857273046867,0.0,-8.87104729715911,17.211267457182412
27.050229337155482,0.0,-8.695684821438237,17.276158767566102
27.171885943842295,0.0,-8.465955698741686,17.373569844953213
27.293542550529107,0.0,-8.180066394525788,17.501305048992315
27.41519915721592,0.0,-7.865026457712037,17.639990470956775
27.536855763902732,0.0,-7.565396831315095,17.7632722055662
27.658512370589545,0.0,-7.322091855061801,17.851216806958472
27.780168977276357,0.0,-7.150708009946265,17.89928312771878
27.90182558396317,0.0,-7.032655047400574,17.919646497001455
28.023482190649982,0.0,-6.925649982911779,17.934665342557675
28.145138797336795,0.0,-6.788322443140185,17.964788407390245
28.266795404023608,0.0,-6.604294183906426,18.01675127229386
28.38845201071042,0.0,-6.391072910561591,18.080279047110643
28.510108617397233,0.0,-6.187626437229297,18.13647138239769
28.631765224084045,0.0,-6.027184548701836,18.171294486844776
28.753421830770858,0.0,-5.914153064242778,18.184448125381646
28.87507843745767,0.0,-5.822437537614359,18.188100574788045
28.996735044144483,0.0,-5.716873763806096,18.19745010000252
29.118391650831295,0.0,-5.580573022103585,18.219033680988613
29.240048257518108,0.0,-5.42664517377023,18.246766921580527
29.36170486420492,0.0,-5.284452154453832,18.26836105031786
29.483361470891733,0.0,-5.173170243448812,18.276680171518603
29.605018077578546,0.0,-5.085802157571796,18.275153392354007
29.726674684265358,0.0,-4.998182934451628,18.27353868465375
29.84833129095217,0.0,-4.893527342134178,18.27835252164286
29.969987897638983,0.0,-4.777137290343222,18.286888399904928
30.091644504325796,0.0,-4.668175682800271,18.29182635277823
30.21330111101261,0.0,-4.578053905560043,18.288912444169362
30.33495771769942,0.0,-4.499810680024481,18.281343622519906
30.456614324386234,0.0,-4.417870496788587,18.274708424521638
30.578270931073046,0.0,-4.32654471417028,18.27086407219308
30.692321511564423,0.0,-4.240182380114213,18.267001028685264
30.794072655799297,0.0,-4.170344462989499,18.26072244623502
30.895823800034172,0.0,-4.108206432991669,18.25157145818967
31.013404699008433,0.0,-4.039572027406386,18.239625073424975
31.118045466585528,0.0,-3.9753273986729716,18.229719774194944
31.222686234162623,0.0,-3.9080993425447863,18.220450424154414
31.348357438108536,0.0,-3.8300019141780526,18.20803411550966
31.47402864205445,0.0,-3.759696639057894,18.192735357324864
31.608225540212025,0.0,-3.6889865269625814,18.17461840945709
31.72343213336633,0.0,-3.625972630777145,18.159413590843066
31.838638726520635,0.0,-3.5615796600527734,18.144271864135362
31.908629554530204,0.0,-3.524139929308807,18.13440024200585
31.933404617395038,0.0,-3.5114047744532266,18.130723298067434
31.970567211692284,0.0,-3.492728425546155,18.125054639594445
32.020117337421944,0.0,-3.4684503330784855,18.1172631463001
32.11581865741358,0.0,-3.4225328605642256,18.101771498377428
32.21151997740521,0.0,-3.3761727321193087,18.086196715380062
32.32659580882788,0.0,-3.3193941458765295,18.067476707813423
32.441671640250554,0.0,-3.2637041542411356,18.047657193946026
32.589908325477374,0.0,-3.1963765134452693,18.020034316553925
32.738145010704194,0.0,-3.13170205916853,17.99114858364184
32.88458871569557,0.0,-3.066868334749078,17.963190366322895
33.011309507470855,0.0,-3.0118077334324487,17.938513540542708
33.13803029924614,0.0,-2.960511242488916,17.91250284454693
33.264751091021424,0.0,-2.9107518989804873,17.8857648694566
33.41674201036018,0.0,-2.849766830484549,17.853602003409065
33.56873292969894,0.0,-2.790183878540957,17.82061590042239
33.660298194749174,0.0,-2.756447948470996,17.799299299143925
33.68708888228896,0.0,-2.7468949343462503,17.7929343972107
33.74067025736855,0.0,-2.727733862559753,17.78017292153784
33.821486376731926,0.0,-2.6982571907667072,17.7609522084658
33.92953724037909,0.0,-2.6579815440231425,17.735248493106365
34.051455055356016,0.0,-2.614050025739376,17.7061194545036
34.1872398216627,0.0,-2.5683309954459337,17.673130356049782
34.32993481905993,0.0,-2.520607083373206,17.638031667382716
34.4795400475477,0.0,-2.4700314923215907,17.60032828204103
34.644421708333276,0.0,-2.416897364072752,17.556917009971823
34.824579801416654,0.0,-2.3611881042312746,17.508356478803332
34.98914014096065,0.0,-2.3092842479628457,17.46369694344545
35.138102726965265,0.0,-2.2643785192008354,17.4223818000231
35.28706531296988,0.0,-2.222090753192364,17.380285239365403
35.436027898974494,0.0,-2.1788800204400163,17.339295347165866
35.5785732418666,0.0,-2.138713095373287,17.299506948640023
35.732989058705634,0.0,-2.0974038860732103,17.255372499918202
35.899275349491596,0.0,-2.052781505672041,17.206006716463744
36.11299963248053,0.0,-1.9963103426106654,17.141726155101523
36.37537711425965,0.0,-1.930755817256865,17.063398986489087
36.68640779482895,0.0,-1.8556171180469407,16.968813764377625
37.19561504510135,0.0,-1.7384060747319696,16.805530534833473
37.566702019920626,0.0,-1.6575282210711018,16.683558004021137
37.988705382663554,0.0,-1.5712287237941003,16.54680582080987
38.46162513333013,0.0,-1.4789948648546438,16.386207348077
39.01337715031167,0.0,-1.3776498311579113,16.19372061667693
39.56512916729321,0.0,-1.2827419677610703,15.997620640108595
40.584058074153845,0.0,-1.1243548090548923,15.635326568881615
41.60298698101448,0.0,-0.9821438632971962,15.258453754474155
42.87478840972285,0.0,-0.8277026231882308,14.791617631383065
44.146589838431225,0.0,-0.692051971137153,14.314496187259053
45.4183912671396,0.0,-0.5745760655791704,13.841174509062323
46.81671782369467,0.0,-0.46345176055465076,13.330901450151613
48.341569508096434,0.0,-0.3607565878318141,12.793472222418599
49.8664211924982,0.0,-0.27719749377931957,12.29315422990003
